! File: C:\Documents and Settings\PROBER\Desktop\Date & Meas\2014\20140508_NOC\T600_02.ivc 
! Comment: 
! Date: Thursday, May 08, 2014 12:39:37
! Frequency: 0 GHz
! Char.Impedances: Source = 50 + 0j Ohm   Load = 50 + 0j Ohm
! Load Frequencies:  N\A 
! Load Impedances (Polar):  N\A 
! Load Impedances:  N\A 
! Source Frequencies:  N\A 
! Source Impedances (Polar):  N\A 
! Source Impedances:  N\A 
! Setup: C:\Documents and Settings\PROBER\Desktop\Date & Meas\2014\20140508_NOC\CW_IV_curve.set 
! Reference Plane: DUT 
! --------------------------------------------------------
! TITLES: I2[mA]   _V1Set[V]   _V2Set[V]   
! --------------------------------------------------------
     0.319    -6.000     0.000
     0.319    -6.000     0.500
     0.319    -6.000     1.000
     0.313    -6.000     1.500
     0.313    -6.000     2.000
     0.300    -6.000     2.500
     0.326    -6.000     4.500
     0.304    -6.000     6.500
     0.307    -6.000     8.500
     0.297    -6.000    10.500
     0.285    -6.000    12.500
     0.272    -6.000    14.500
     0.253    -6.000    16.500
     0.228    -6.000    18.500
     0.228    -6.000    20.500
     0.209    -6.000    22.500
     0.197    -6.000    24.500
     0.137    -6.000    25.000
     0.140    -5.500     0.000
     0.247    -5.500     0.500
     0.269    -5.500     1.000
     0.282    -5.500     1.500
     0.300    -5.500     2.000
     0.313    -5.500     2.500
     0.322    -5.500     3.000
     0.348    -5.500     3.500
     0.357    -5.500     4.000
     0.451    -5.500     6.000
     0.533    -5.500     8.000
     0.646    -5.500    10.000
     0.832    -5.500    12.000
     1.023    -5.500    14.000
     1.237    -5.500    16.000
     1.539    -5.500    18.000
     1.897    -5.500    20.000
     2.485    -5.500    22.000
     2.488    -5.500    22.500
     2.545    -5.500    23.000
     2.721    -5.500    23.500
     2.910    -5.500    24.000
     3.035    -5.500    24.500
     3.221    -5.500    25.000
     0.244    -5.000     0.000
     5.296    -5.000     0.500
     7.663    -5.000     1.000
     9.781    -5.000     1.500
    11.661    -5.000     2.000
    13.299    -5.000     2.500
    14.780    -5.000     3.000
    16.210    -5.000     3.500
    17.502    -5.000     4.000
    18.656    -5.000     4.500
    19.778    -5.000     5.000
    20.784    -5.000     5.500
    21.721    -5.000     6.000
    22.459    -5.000     6.500
    23.264    -5.000     7.000
    24.097    -5.000     7.500
    24.977    -5.000     8.000
    25.854    -5.000     8.500
    26.719    -5.000     9.000
    27.605    -5.000     9.500
    28.369    -5.000    10.000
    29.168    -5.000    10.500
    29.944    -5.000    11.000
    30.639    -5.000    11.500
    31.352    -5.000    12.000
    32.038    -5.000    12.500
    32.698    -5.000    13.000
    33.358    -5.000    13.500
    33.943    -5.000    14.000
    34.552    -5.000    14.500
    35.200    -5.000    15.000
    35.772    -5.000    15.500
    36.310    -5.000    16.000
    36.882    -5.000    16.500
    37.476    -5.000    17.000
    38.026    -5.000    17.500
    38.548    -5.000    18.000
    39.114    -5.000    18.500
    41.402    -5.000    20.500
    43.546    -5.000    22.500
    45.668    -5.000    24.500
    46.146    -5.000    25.000
     0.451    -4.500     0.000
    35.257    -4.500     0.500
    49.314    -4.500     1.000
    55.143    -4.500     1.500
    58.984    -4.500     2.000
    61.383    -4.500     2.500
    63.215    -4.500     3.000
    64.906    -4.500     3.500
    66.692    -4.500     4.000
    69.559    -4.500     4.500
    73.290    -4.500     5.000
    76.327    -4.500     5.500
    82.586    -4.500     7.500
    87.043    -4.500     9.500
    90.171    -4.500    11.500
    92.324    -4.500    13.500
    94.028    -4.500    15.500
    95.348    -4.500    17.500
    96.502    -4.500    19.500
    97.514    -4.500    21.500
    98.344    -4.500    23.500
    98.907    -4.500    25.000
     0.461    -4.000     0.000
    46.014    -4.000     0.500
    85.355    -4.000     1.000
   106.782    -4.000     1.500
   113.804    -4.000     2.000
   117.800    -4.000     2.500
   120.506    -4.000     3.000
   122.524    -4.000     3.500
   124.187    -4.000     4.000
   126.051    -4.000     4.500
   130.380    -4.000     5.000
   135.730    -4.000     5.500
   139.125    -4.000     6.000
   141.209    -4.000     6.500
   142.813    -4.000     7.000
   144.029    -4.000     7.500
   145.026    -4.000     8.000
   147.852    -4.000    10.000
   149.021    -4.000    12.000
   149.468    -4.000    14.000
   149.518    -4.000    16.000
   149.147    -4.000    18.000
   148.358    -4.000    20.000
!   147.226    -4.000    22.000
     0.502    -3.500     0.000
    49.182    -3.500     0.500
    95.826    -3.500     1.000
   136.419    -3.500     1.500
   162.799    -3.500     2.000
   172.793    -3.500     2.500
   177.332    -3.500     3.000
   180.098    -3.500     3.500
   181.811    -3.500     4.000
   182.795    -3.500     4.500
   184.087    -3.500     5.000
   188.655    -3.500     5.500
   195.530    -3.500     6.000
   198.956    -3.500     6.500
   201.022    -3.500     7.000
   202.361    -3.500     7.500
   203.203    -3.500     8.000
   203.791    -3.500     8.500
   204.212    -3.500     9.000
   204.426    -3.500     9.500
   204.439    -3.500    10.000
   204.442    -3.500    10.500
   203.656    -3.500    12.500
   201.930    -3.500    14.500
!   199.500    -3.500    16.500
     0.539    -3.000     0.000
    50.650    -3.000     0.500
    99.869    -3.000     1.000
   146.032    -3.000     1.500
   185.741    -3.000     2.000
   215.139    -3.000     2.500
   229.955    -3.000     3.000
   235.711    -3.000     3.500
   238.690    -3.000     4.000
   240.080    -3.000     4.500
   240.508    -3.000     5.000
   240.473    -3.000     5.500
   242.717    -3.000     6.000
   249.624    -3.000     6.500
   254.072    -3.000     7.000
   256.656    -3.000     7.500
   257.951    -3.000     8.000
   258.665    -3.000     8.500
   258.973    -3.000     9.000
   258.954    -3.000     9.500
   258.705    -3.000    10.000
   258.313    -3.000    10.500
   257.725    -3.000    11.000
   256.983    -3.000    11.500
!   256.147    -3.000    12.000
     0.558    -2.500     0.000
    51.487    -2.500     0.500
   101.918    -2.500     1.000
   150.062    -2.500     1.500
   193.465    -2.500     2.000
   230.055    -2.500     2.500
   257.835    -2.500     3.000
   276.161    -2.500     3.500
   285.444    -2.500     4.000
   290.700    -2.500     4.500
   293.938    -2.500     5.000
   295.262    -2.500     5.500
   295.334    -2.500     6.000
   294.416    -2.500     6.500
   294.341    -2.500     7.000
   298.361    -2.500     7.500
   303.441    -2.500     8.000
   306.990    -2.500     8.500
   308.741    -2.500     9.000
   309.376    -2.500     9.500
!   309.398    -2.500    10.000
     0.580    -2.000     0.000
    51.936    -2.000     0.500
   102.934    -2.000     1.000
   151.926    -2.000     1.500
   196.671    -2.000     2.000
   235.170    -2.000     2.500
   265.382    -2.000     3.000
   285.095    -2.000     3.500
   299.779    -2.000     4.000
   318.115    -2.000     4.500
   333.518    -2.000     5.000
   342.669    -2.000     5.500
   346.460    -2.000     6.000
   347.375    -2.000     6.500
   346.655    -2.000     7.000
   344.838    -2.000     7.500
   343.304    -2.000     8.000
   344.782    -2.000     8.500
!   348.356    -2.000     9.000
     0.577    -1.500     0.000
    52.012    -1.500     0.500
   103.107    -1.500     1.000
   152.290    -1.500     1.500
   197.344    -1.500     2.000
   236.383    -1.500     2.500
   266.769    -1.500     3.000
   286.023    -1.500     3.500
   303.369    -1.500     4.000
   324.635    -1.500     4.500
   345.392    -1.500     5.000
   363.844    -1.500     5.500
   378.644    -1.500     6.000
   387.949    -1.500     6.500
   392.183    -1.500     7.000
   393.038    -1.500     7.500
!   391.790    -1.500     8.000
     0.596    -1.000     0.000
    52.417    -1.000     0.500
   103.955    -1.000     1.000
   153.535    -1.000     1.500
   198.940    -1.000     2.000
   238.178    -1.000     2.500
   268.661    -1.000     3.000
   286.394    -1.000     3.500
   305.858    -1.000     4.000
   328.244    -1.000     4.500
   350.786    -1.000     5.000
   372.325    -1.000     5.500
   391.862    -1.000     6.000
   409.378    -1.000     6.500
   423.263    -1.000     7.000
!   431.952    -1.000     7.500
     0.580    -0.500     0.000
    52.961    -0.500     0.500
   105.021    -0.500     1.000
   155.151    -0.500     1.500
   200.786    -0.500     2.000
   240.137    -0.500     2.500
   270.355    -0.500     3.000
   287.459    -0.500     3.500
   308.575    -0.500     4.000
   332.000    -0.500     4.500
   355.155    -0.500     5.000
   377.493    -0.500     5.500
   398.847    -0.500     6.000
   418.595    -0.500     6.500
!   436.362    -0.500     7.000
     0.590     0.000     0.000
    53.184     0.000     0.500
   105.471     0.000     1.000
   155.777     0.000     1.500
   201.845     0.000     2.000
   241.183     0.000     2.500
   270.861     0.000     3.000
   287.085     0.000     3.500
   309.543     0.000     4.000
   333.349     0.000     4.500
   357.567     0.000     5.000
   380.426     0.000     5.500
   402.258     0.000     6.000
   422.826     0.000     6.500
!   442.062     0.000     7.000
